File: robowski/uv_vis_absorption_spectroscopy/prussian_blue_analogs_analysis_data_and_code/result/Spectra_unmixing_result.csv
,ref1,ref2,ref3,yield_epox,yield_alde
0,0.149718,0.082012,0.0,35.3912,0.0
1,0.165007,0.0879207,0.00779425,33.722,2.98949
2,0.192195,0.0467249,0.00785844,18.9339,3.18441
3,0.201382,0.042309,0.00612431,16.9361,2.45153
4,0.202242,0.0401123,0.00286138,16.358,1.16688
5,0.222413,0.0173153,0.00874782,6.96858,3.52058
6,0.0879785,0.116752,0.00118081,56.7001,0.573457
7,0.0815079,0.101719,0.00670558,53.5553,3.53051
8,0.0987665,0.102728,0.0062716,49.4441,3.01859
9,0.11611,0.118378,0.00599198,49.2257,2.49168
10,0.205686,0.132012,0.0446627,34.5255,11.6808
11,0.0893665,0.114247,0.00350651,55.1597,1.69299
12,0.0870318,0.102443,0.00715958,52.0982,3.64106
13,0.10511,0.103328,0.0047107,48.4771,2.21005
14,0.186271,0.0653007,0.00314026,25.6371,1.23287
15,0.0776062,0.0914942,0.0054485,52.4175,3.12148
16,0.106314,0.104336,0.0025622,48.9353,1.20171
17,0.174848,0.0802812,0.0,31.4669,0.0
18,0.111061,0.103956,0.00321006,47.6366,1.47097
19,0.16206,0.0743897,0.00397444,30.9411,1.6531
20,0.171938,0.0745072,0.00617497,29.4937,2.44437
21,0.150204,0.0802891,0.00556487,34.0124,2.35742
22,0.167838,0.054508,0.00565438,23.907,2.47999
23,0.213817,0.0422538,0.00332916,16.289,1.2834
24,0.198341,0.0373364,0.00848792,15.2914,3.4763
25,0.223311,0.01644,0.0100042,6.58244,4.0056
26,0.0736138,0.0956004,0.0031877,55.4521,1.849
27,0.0896621,0.107073,0.00572369,52.8864,2.82709
28,0.103747,0.0931392,0.00215749,46.7934,1.08393
29,0.174397,0.0467934,0.00542141,20.6491,2.39238
30,0.0776667,0.094832,0.00584323,53.1743,3.27642
31,0.0841204,0.089398,0.00620017,49.7433,3.44993
32,0.153473,0.0674276,0.00580401,29.7426,2.56017
33,0.0904515,0.0959209,0.00329267,50.5738,1.73604
34,0.146166,0.071802,0.0040009,32.3477,1.80246
35,0.142812,0.0748215,0.00438391,33.7008,1.97458
36,0.0895113,0.0974279,0.0079929,49.9804,4.10035
37,0.192606,0.041428,0.0040969,17.3971,1.72044
38,0.196157,0.0381966,0.00564483,15.9153,2.35203
39,0.251885,0.0174056,0.00496659,6.34645,1.81092
40,0.0739658,0.0984298,0.00268482,56.2198,1.53348
41,0.0955265,0.0918944,0.00552755,47.6264,2.86478
42,0.191869,0.0533512,0.00742745,21.1169,2.93985
43,0.0930697,0.103319,0.00329449,51.7416,1.64985
44,0.154726,0.0591905,0.00784619,26.691,3.53811
45,0.165856,0.0716894,0.00580332,29.4596,2.38478
46,0.100625,0.1031,0.00697715,48.9317,3.31138
47,0.200088,0.0414405,0.00787991,16.6156,3.15945
48,0.228851,0.0164869,0.00916163,6.47817,3.59986
49,0.0824666,0.0993057,0.00420954,53.3954,2.26342
50,0.190189,0.0414435,0.00647801,17.4052,2.72059
51,0.168868,0.0547897,0.00610975,23.8458,2.6591
52,0.112802,0.0812539,0.00596252,40.6232,2.98098
53,0.228175,0.0185065,0.00777004,7.27311,3.05364
54,0.19427,0.0391804,0.00016804,16.7711,0.0719292
55,0.217968,0.0196013,0.00305123,8.14614,1.26807
56,0.0719585,0.0875395,0.00378418,53.6124,2.31757
57,0.119782,0.0736312,0.00488689,37.1312,2.46439
58,0.182485,0.071446,0.00525774,27.5652,2.02854
59,0.179324,0.0456939,0.00403607,19.949,1.76206
60,0.201922,0.0157535,0.00864054,6.96083,3.8179
61,0.0808786,0.103481,0.00280003,55.2902,1.49607
62,0.0917894,0.117118,0.00207245,55.5115,0.982296
63,0.0886471,0.0923628,0.00264159,50.2924,1.43837
64,0.21412,0.0320751,0.00443837,12.7976,1.77086
65,0.0824048,0.102723,0.00288346,54.6366,1.53366
66,0.0884605,0.0989141,0.00295886,51.9689,1.55456
67,0.177332,0.0597455,0.00198632,24.9915,0.830873
68,0.0854164,0.0966807,0.00262981,52.3371,1.42362
69,0.159159,0.0563601,0.00532987,25.5198,2.41336
70,0.161106,0.0735088,0.00427821,30.7705,1.79084
71,0.0828736,0.0991541,0.00123512,54.1049,0.673964
72,0.142015,0.0702106,0.00353035,32.5417,1.63627
73,0.172031,0.0456858,0.00730438,20.3029,3.24609
74,0.233744,0.0201707,0.00732281,7.7212,2.80313
75,0.0900559,0.11235,0.0002577,55.4368,0.127156
76,0.10205,0.103209,0.00270094,49.6292,1.29878
77,0.208628,0.0397719,0.00288021,15.8277,1.14622
78,0.0927238,0.101311,0.000345414,52.1201,0.1777
79,0.159201,0.0701372,0.00453161,29.9899,1.93767
80,0.14826,0.076599,0.0037589,33.5052,1.64418
81,0.106788,0.103439,0.000305842,49.132,0.145271
82,0.156598,0.0582349,0.00342235,26.682,1.56805
83,0.234426,0.0218063,0.00677214,8.29124,2.57492
84,0.0938366,0.105574,0.00231369,52.3359,1.14696
85,0.212544,0.046393,0.0032711,17.6932,1.24752
86,0.181787,0.0700864,0.00223321,27.5815,0.878849
87,0.137677,0.0869392,0.00242201,38.2928,1.06679
88,0.230214,0.0236329,0.00640697,9.08071,2.46181
89,0.189756,0.0589119,0.00224259,23.4792,0.893778
90,0.206484,0.0258037,0.00576306,10.8396,2.42094
91,0.0801017,0.103005,0.00389552,55.0823,2.08314
92,0.133021,0.0732377,0.0039542,34.8398,1.88104
93,0.161798,0.0617857,0.00227445,27.3559,1.00702
94,0.228473,0.0135274,0.00644774,5.44476,2.5952
95,0.0860632,0.104682,2.82117e-05,54.8724,0.014788
96,0.0924214,0.11596,0.00336734,54.763,1.59025
97,0.212347,0.0347704,0.00464345,13.8109,1.84439
98,0.0963533,0.115347,0.0,54.4861,0.0
99,0.164506,0.0751113,0.0047453,30.7376,1.9419
100,0.161278,0.070506,0.00371628,29.9388,1.57804
101,0.0948553,0.100412,0.00376926,50.449,1.89375
102,0.157699,0.0799251,0.00432875,33.0333,1.78908
103,0.24409,0.0216769,0.00451117,8.02022,1.66908
104,0.087944,0.107269,0.00275464,54.1851,1.39146
105,0.215032,0.0391346,0.00398,15.1599,1.54176
106,0.168922,0.0740075,0.00317954,30.071,1.29192
107,0.154525,0.091154,0.00424536,36.4726,1.69866
108,0.193889,0.0241546,0.00630726,10.7664,2.81134
109,0.149364,0.0439361,0.00719063,21.9142,3.58651
110,0.182194,0.00976128,0.0,5.08519,0.0
111,0.0928589,0.0453684,0.00171789,32.4187,1.22755
112,0.11848,0.0503332,0.000914347,29.6553,0.538715
113,0.185782,0.00715201,0.00350559,3.64081,1.78456
114,0.066164,0.0480728,0.000817969,41.7826,0.710939
115,0.17377,0.0367398,0.00331743,17.182,1.55145
116,0.163459,0.026583,0.000490962,13.9519,0.257678
117,0.123669,0.0761418,0.00149729,37.8235,0.743781
118,0.199913,0.0163358,0.00216574,7.47928,0.991571
119,0.179862,0.0286753,0.00481323,13.4405,2.25602
120,0.210688,0.0111028,0.00257482,4.94852,1.1476
121,0.05671,0.0070901,0.0,11.113,0.0
122,0.195125,0.00529794,0.00445923,2.58585,2.17649
123,0.176747,0.0383191,0.00280483,17.5879,1.28738
124,0.20283,0.0173689,0.0,7.88782,0.0
125,0.207368,0.00839575,0.00496324,3.80367,2.24858
126,0.062096,0.0921743,0.00704935,57.1377,4.3698
127,0.0593101,0.0869948,0.0115342,55.1161,7.30756
128,0.0826693,0.072161,0.010292,43.7015,6.23296
129,0.110918,0.0617251,0.0129367,33.2606,6.97097
130,0.146932,0.0533143,0.00232742,26.3185,1.14893
131,0.160957,0.0419309,0.0127294,19.4469,5.90371
132,0.0531031,0.0902591,0.00808546,59.5975,5.33878
133,0.0562612,0.0975367,0.00621579,60.9552,3.88454
134,0.056067,0.102015,0.0097752,60.7748,5.82353
135,0.0587848,0.0976004,0.0109289,58.3336,6.53199
136,0.158672,0.0660333,0.0159099,27.4435,6.61217
137,0.0568681,0.0898538,0.00862703,57.84,5.55333
138,0.0614712,0.103983,0.0081572,59.8941,4.69855
139,0.0582116,0.0969764,0.00916813,59.0038,5.57821
140,0.109056,0.0871389,0.0132619,41.6024,6.33157
141,0.059686,0.101448,0.00701742,60.3314,4.17327
142,0.0631084,0.101672,0.00950195,58.3376,5.45204
143,0.108663,0.082138,0.0129913,40.3047,6.37475
144,0.0650455,0.101675,0.0126516,56.6838,7.05329
145,0.109685,0.0816666,0.0147387,39.6267,7.15157
146,0.115847,0.0817723,0.0133141,38.7669,6.312
147,0.0768589,0.103769,0.0110461,54.1384,5.76297
148,0.080616,0.106755,0.0119279,53.5652,5.98494
149,0.132121,0.0792768,0.0101699,35.78,4.58997
150,0.153771,0.0598598,0.0154886,26.1261,6.76007
151,0.183435,0.0428015,0.0121296,17.9562,5.08865
152,0.0669296,0.104297,0.00320499,59.7926,1.83739
153,0.057352,0.10427,0.00578408,62.2857,3.45511
154,0.0639597,0.104357,0.00886922,58.8969,5.00559
155,0.155015,0.0737771,0.013308,30.4739,5.49693
156,0.0600441,0.104291,0.00738277,60.734,4.29936
157,0.0617713,0.104284,0.00727497,60.165,4.19717
158,0.125811,0.0795097,0.0127899,36.4538,5.86393
159,0.0642058,0.104322,0.00882729,58.821,4.97719
160,0.119316,0.0866539,0.0119283,39.7681,5.47424
161,0.117695,0.0860807,0.0117092,39.9473,5.43388
162,0.0909107,0.106489,0.01462,50.2259,6.89559
163,0.118939,0.108488,0.0084341,45.9964,3.57587
164,0.16215,0.0658944,0.0154803,27.0586,6.35679
165,0.195692,0.0458569,0.013554,17.9759,5.31315
166,0.05894,0.10584,0.00723197,61.5305,4.20435
167,0.0675527,0.110782,0.00818612,59.3939,4.38885
168,0.180665,0.0600806,0.0127981,23.6964,5.04769
169,0.0698935,0.107704,0.010762,57.18,5.71355
170,0.1654,0.075822,0.0123662,29.8997,4.8765
171,0.135579,0.083301,0.0128678,35.9446,5.55249
172,0.102289,0.106291,0.0152222,47.4932,6.80163
173,0.173949,0.0728305,0.004547,28.9784,1.8092
174,0.195343,0.0428327,0.012275,17.1023,4.90117
175,0.0798301,0.105405,0.0126298,53.2712,6.38302
176,0.206391,0.0551332,0.0114358,20.1983,4.18956
177,0.176527,0.0712387,0.0121514,27.4082,4.6751
178,0.122033,0.0901582,0.0112479,40.3502,5.03398
179,0.197143,0.0468085,0.0134167,18.1874,5.21303
180,0.164537,0.0407088,0.0115347,18.7788,5.3209
181,0.159145,0.0429971,0.0133279,19.955,6.18549
182,0.0544824,0.0904141,0.00877819,58.8347,5.71219
183,0.05409,0.0968124,0.00572582,61.8103,3.65568
184,0.0961959,0.0746883,0.0124428,40.7405,6.78721
185,0.143568,0.0639934,0.00792388,29.6973,3.67722
186,0.178199,0.0282008,0.0097254,13.0483,4.49989
187,0.0588086,0.0964547,0.00817161,59.0172,4.99991
188,0.0589414,0.10419,0.00568745,61.7171,3.36896
189,0.0708095,0.107659,0.00281207,59.3881,1.55122
190,0.146846,0.0726706,0.00718826,32.0552,3.17076
191,0.0587784,0.10287,0.00875266,60.3693,5.13652
192,0.0692055,0.104091,0.00392099,58.7363,2.21253
193,0.131529,0.0781704,0.00522903,36.3705,2.43292
194,0.0618067,0.104268,0.00720711,60.1726,4.15917
195,0.11525,0.0787595,0.0108802,38.4399,5.31025
196,0.124413,0.0832078,0.00979981,38.2705,4.50731
197,0.0637918,0.105948,0.0109801,58.6255,6.07578
198,0.0771392,0.116383,0.00773055,57.8293,3.84121
199,0.101497,0.0925821,0.00798573,45.8181,3.95207
200,0.192693,0.0458546,0.00925021,18.5048,3.73297
201,0.0579309,0.103357,0.00748341,61.241,4.43404
202,0.0782756,0.107029,0.0103965,54.6901,5.31243
203,0.136091,0.0748304,0.00969003,33.9196,4.39235
204,0.0831298,0.107321,0.00478578,54.9697,2.45127
205,0.133616,0.0815512,0.0106003,36.1217,4.69523
206,0.134818,0.0808488,0.00518006,36.6085,2.34554
207,0.0697587,0.101958,0.011205,55.7385,6.1256
208,0.0928171,0.0977222,0.00944991,48.8637,4.72521
209,0.177954,0.042287,0.012679,18.1552,5.44348
210,0.0746967,0.102907,0.0100711,54.8327,5.36624
211,0.161565,0.0691989,0.00913297,28.8453,3.80704
212,0.143219,0.0746762,0.011183,32.5986,4.88175
213,0.0970019,0.0946503,0.00721665,47.5943,3.62885
214,0.20177,0.0442235,0.0014163,17.8746,0.572452
215,0.189035,0.0678477,0.00884865,25.5324,3.32992
216,0.178178,0.0502939,0.00741763,21.321,3.14454
217,0.0791371,0.12781,0.00156342,61.2967,0.749801
218,0.0811004,0.103773,0.0037008,55.0302,1.96252
219,0.139771,0.0854584,0.01197,36.0281,5.0464
220,0.197037,0.0432584,0.0128324,17.0896,5.06955
221,0.0617395,0.105444,0.00937857,59.7207,5.31177
222,0.0690921,0.107939,0.00819974,58.2727,4.42677
223,0.170937,0.0681826,0.0106076,27.3028,4.24766
224,0.068474,0.126565,0.00629412,62.8634,3.12623
225,0.162234,0.0736642,0.00941782,30.0283,3.83905
226,0.159072,0.0580215,0.00960807,25.5937,4.2382
227,0.0734335,0.105883,0.0103998,55.8113,5.48177
228,0.0989287,0.0987306,0.00861182,47.8645,4.175
229,0.195985,0.0404919,0.00794118,16.5667,3.24901
230,0.0660758,0.110825,0.00768542,60.0397,4.16359
231,0.156019,0.0752837,0.0102915,31.1612,4.25981
232,0.147579,0.0752549,0.00906205,32.4521,3.90781
233,0.0831428,0.102955,0.0112619,52.1662,5.70628
234,0.117179,0.0382495,0.0105736,23.0416,6.36954
235,0.105545,0.0448892,0.00990353,27.9967,6.17669
236,0.130496,0.0364528,0.0097096,20.6347,5.49627
237,0.0446091,0.0727927,0.0096075,57.3129,7.56441
238,0.0781503,0.0856729,0.0119938,48.7284,6.82178
239,0.153895,0.0385412,0.0119254,18.8593,5.83543
240,0.0514066,0.0895259,0.00546546,61.1524,3.73329
241,0.127165,0.0446509,0.00967085,24.6029,5.32869
242,0.12924,0.0503665,0.00992327,26.5744,5.23572
243,0.0559669,0.0886951,0.00863879,57.8569,5.63519
244,0.139245,0.0406927,0.0112768,21.2812,5.89744
245,0.116192,0.0477778,0.0105684,27.3739,6.05509
246,0.16346,0.0473666,0.00983473,21.4658,4.45695
247,0.0550417,0.0888353,0.00792682,58.5198,5.22175
248,0.158874,0.0375681,0.0114626,18.0699,5.5134
249,0.13897,0.0451368,0.00950857,23.3125,4.91105
250,0.146862,0.0401248,0.00877512,20.4967,4.48254
251,0.172572,0.0298564,0.00124143,14.6592,0.609532
252,0.0859015,0.104981,0.00782632,52.8315,3.93859
253,0.0926984,0.121148,0.00720284,54.8058,3.25848
254,0.13926,0.102692,0.011633,40.4961,4.58743
255,0.166473,0.0781209,0.0144447,30.158,5.57628
256,0.176457,0.0613377,0.01332,24.4262,5.30436
257,0.200551,0.0528609,0.0138657,19.7775,5.18775
258,0.0698119,0.127508,0.000828243,64.3498,0.417992
259,0.0714327,0.13184,0.00104697,64.5263,0.51242
260,0.0803376,0.131774,0.00321148,61.1982,1.49147
261,0.103281,0.129066,0.00291224,54.8612,1.23788
262,0.197126,0.0471483,0.0145031,18.2197,5.60449
263,0.07346,0.127112,0.00262587,62.5558,1.29227
264,0.0721655,0.141571,0.000139601,66.193,0.0652719
265,0.0801812,0.130369,0.00362191,60.8711,1.69112
266,0.170225,0.0722634,0.0123126,28.3607,4.83222
267,0.0648199,0.105993,0.00135442,61.5639,0.786687
268,0.0681535,0.101196,0.00177749,59.1351,1.03869
269,0.148649,0.0901414,0.00502309,36.9715,2.06022
270,0.0686498,0.108646,0.00832739,58.5304,4.48618
271,0.131835,0.109807,0.0144894,42.8713,5.65702
272,0.138296,0.0846826,0.0143811,35.6769,6.05877
273,0.0970631,0.122351,0.0102374,53.2768,4.45779
274,0.111807,0.100669,0.00796085,45.6679,3.61141
275,0.173494,0.0775484,0.0134153,29.3236,5.07277
276,0.183971,0.0534978,0.0137427,21.2959,5.47058
277,0.224682,0.0423946,0.00995077,15.3034,3.59198
278,0.0649072,0.110307,0.00825002,60.1246,4.49679
279,0.065667,0.109247,0.0102419,59.0028,5.5315
280,0.109338,0.100341,0.011447,45.3773,5.17668
281,0.177102,0.0666636,0.0111776,26.1484,4.38436
282,0.0741472,0.124469,0.00403439,61.4206,1.99081
283,0.0765097,0.11726,0.00796139,58.1268,3.94654
284,0.178471,0.0641432,0.0128222,25.1113,5.01972
285,0.0764765,0.109305,0.0104666,55.6973,5.33337
286,0.167531,0.074669,0.0112166,29.4649,4.42614
287,0.150379,0.0762918,0.0104365,32.176,4.40161
288,0.10477,0.109696,0.00662901,49.6148,2.99827
289,0.132779,0.105622,0.0153335,41.627,6.04313
290,0.196361,0.071395,0.0131491,25.416,4.68096
291,0.197482,0.0744561,0.0146715,25.9782,5.11898
292,0.0863717,0.150706,0.00111493,63.2707,0.468079
293,0.106123,0.120619,0.012217,50.4768,5.11259
294,0.188647,0.099104,0.0157495,32.6537,5.18927
295,0.0951374,0.151026,0.00318223,60.569,1.27623
296,0.188362,0.0895354,0.0132358,30.7541,4.54629
297,0.192265,0.0925802,0.0118872,31.1999,4.00603
298,0.109621,0.1625,0.0073232,58.151,2.62063
299,0.188554,0.103472,0.00938356,34.3294,3.11323
300,0.201716,0.0796423,0.0142676,26.9403,4.82626
301,0.0988752,0.129131,0.00545096,55.3125,2.33488
302,0.192362,0.0793661,0.00777563,28.3954,2.78194
303,0.195404,0.0955953,0.0149451,31.246,4.88491
304,0.112815,0.141755,0.0100531,53.5688,3.79901
305,0.200822,0.0781581,0.0137766,26.6973,4.70581
306,0.169822,0.0656927,0.0167086,26.0454,6.62451
307,0.189732,0.0745686,0.0161849,26.5855,5.77032
308,0.0748504,0.180941,0.00336434,69.8194,1.2982
309,0.0832573,0.153773,0.0013849,64.498,0.580876
310,0.105541,0.147973,0.00459833,57.3289,1.78152
311,0.157618,0.116009,0.0132325,40.4409,4.6129
312,0.234414,0.0651374,0.00946568,21.0789,3.06316
313,0.077396,0.135594,0.00543852,62.077,2.48984
314,0.0810096,0.146568,0.000512474,64.2589,0.22468
315,0.0713063,0.119093,0.00712092,60.294,3.60517
316,0.190446,0.0734511,0.013729,26.4568,4.94514
317,0.0804202,0.146501,0.0,64.5603,0.0
318,0.0951727,0.165494,0.0,63.4887,0.0
319,0.152603,0.123308,0.0123644,42.7743,4.2891
320,0.0973963,0.151053,0.00325511,60.0121,1.29323
321,0.14859,0.124059,0.0108218,43.7642,3.81762
322,0.147225,0.119945,0.00523974,44.031,1.92347
323,0.104383,0.155942,0.00300241,59.2197,1.14018
324,0.0979273,0.156748,0.0102631,59.1639,3.87376
325,0.115181,0.154315,0.00300656,56.6288,1.10331
326,0.220769,0.0602569,0.0144583,20.3926,4.89309
327,0.0794962,0.142646,0.00179108,63.7002,0.79983
328,0.084165,0.13002,0.00949862,58.1268,4.24645
329,0.20446,0.116798,0.0131256,34.9293,3.92533
330,0.0845528,0.129036,0.00826564,58.1625,3.7257
331,0.165123,0.0912426,0.00915509,34.3637,3.44798
332,0.138919,0.0748758,0.0096154,33.5149,4.30392
333,0.0819324,0.14101,0.0120025,60.0184,5.10865
334,0.11754,0.123827,0.0109981,49.0665,4.358
335,0.202735,0.123053,0.0156342,36.0413,4.57916
336,0.079231,0.134584,0.00705748,60.933,3.19527
337,0.204732,0.0844796,0.0151606,27.7554,4.98093
338,0.17603,0.114171,0.0134863,37.5949,4.44084
339,0.107198,0.154242,0.00423956,58.0556,1.59575
340,0.204677,0.0795638,0.0121503,26.8442,4.0994
341,0.23222,0.0742897,0.0136175,23.2063,4.25376
342,0.195796,0.100058,0.015163,32.1713,4.8753
343,0.0868393,0.142093,0.00144941,61.6772,0.629132
344,0.105727,0.141631,0.0101312,55.0047,3.93461
345,0.135723,0.115415,0.0141462,43.5061,5.33244
346,0.23393,0.0547451,0.00623118,18.5636,2.11293
347,0.0778584,0.139781,0.00749573,62.0877,3.32943
348,0.0901925,0.139546,0.00725641,58.8815,3.06184
349,0.19026,0.075912,0.0145434,27.0424,5.18084
350,0.0872351,0.148777,0.00660596,61.3215,2.72278
351,0.201297,0.0725744,0.00885561,25.6694,3.13222
352,0.175174,0.121889,0.0142713,39.1505,4.58392
353,0.0899431,0.133714,0.00535087,58.3883,2.33655
354,0.0970627,0.13444,0.00939931,55.807,3.90171
355,0.206599,0.066857,0.0117699,23.44,4.12651
356,0.0837853,0.165064,0.00420454,65.2287,1.66152
357,0.181548,0.074453,0.00785204,28.2176,2.97592
358,0.175193,0.0923831,0.0134548,32.8729,4.78764
359,0.100172,0.13338,0.00150752,56.7431,0.641336
360,0.152627,0.0427087,0.016892,20.124,7.95934
361,0.163677,0.0538126,0.0185695,22.7963,7.86648
362,0.156427,0.0581132,0.0173093,25.065,7.46576
363,0.0577133,0.0981464,0.00446516,61.2172,2.78507
364,0.0896294,0.0924033,0.0146845,46.9727,7.46478
365,0.150299,0.0380373,0.014962,18.7101,7.35961
366,0.0401445,0.0681371,0.00739007,58.9056,6.38883
367,0.144341,0.0454489,0.013712,22.3335,6.73802
368,0.146998,0.0668859,0.0144118,29.2979,6.31275
369,0.0678061,0.133485,0.00466298,64.8129,2.26409
370,0.139788,0.0717519,0.0171242,31.3788,7.48882
371,0.148965,0.043563,0.0148348,21.0081,7.154
372,0.174525,0.0427374,0.0137504,18.5,5.95223
373,0.0675327,0.106521,0.0102016,57.8116,5.53669
374,0.160299,0.0678412,0.0146505,27.9422,6.0342
375,0.171872,0.0425491,0.013009,18.7086,5.72
376,0.188372,0.0431733,0.0134905,17.6192,5.50552
377,0.220898,0.0432078,0.0157398,15.4399,5.62445
378,0.102995,0.142067,0.000903601,57.759,0.367368
379,0.13892,0.118996,0.011102,44.2334,4.12687
380,0.185978,0.0889895,0.00992566,31.2361,3.484
381,0.189402,0.057517,0.00994581,22.3919,3.872
382,0.192082,0.0540973,0.0111657,21.0213,4.33881
383,0.204902,0.0496415,0.0122889,18.604,4.60547
384,0.0753216,0.119729,0.0038298,60.2015,1.92568
385,0.165233,0.0923116,0.0096634,34.5468,3.61644
386,0.195102,0.0707963,0.0108214,25.5841,3.91059
387,0.212227,0.0725323,0.0152496,24.1767,5.08304
388,0.220713,0.0564698,0.0163131,19.2404,5.5582
389,0.0841562,0.122846,0.0058326,57.719,2.74043
390,0.205177,0.0721409,0.00700248,25.3731,2.46288
391,0.203841,0.0604646,0.0124472,21.8479,4.49759
392,0.212907,0.0471971,0.010766,17.4242,3.97461
393,0.0845717,0.118368,0.00572115,56.7274,2.74185
394,0.160494,0.0978838,0.0100783,36.4617,3.75416
395,0.207451,0.0530475,0.0130042,19.3956,4.75467
396,0.0870221,0.120263,0.00645534,56.2659,3.02018
397,0.151464,0.0915847,0.00737259,36.5722,2.94407
398,0.156514,0.0900561,0.00777739,35.4067,3.05778
399,0.103239,0.135595,0.00654724,55.2589,2.66819
400,0.158613,0.10174,0.00791857,37.9242,2.9517
401,0.207711,0.0650305,0.0114529,22.8824,4.02994
402,0.216426,0.0572179,0.00963073,20.1987,3.39978
403,0.222895,0.0497966,0.00820979,17.7274,2.92266
404,0.101742,0.127423,0.0048577,54.449,2.07574
405,0.192694,0.0815959,0.00926442,28.7761,3.26724
406,0.217462,0.0568963,0.01231,19.8475,4.29416
407,0.230099,0.0512258,0.00963187,17.606,3.31041
408,0.119346,0.124468,0.00775006,49.4778,3.08075
409,0.211937,0.0658022,0.0127531,22.652,4.39017
410,0.211251,0.0765288,0.00975587,25.7209,3.27889
411,0.123509,0.117693,0.00303053,48.1889,1.24084
412,0.203675,0.0727086,0.0123958,25.1779,4.29249
413,0.192928,0.071628,0.00758527,26.3201,2.78725
414,0.106411,0.141226,0.00344248,56.2475,1.37107
415,0.193669,0.0914425,0.0113648,30.8431,3.83327
416,0.222764,0.0767096,0.0135401,24.5068,4.32572
417,0.221033,0.0509612,0.0120757,17.9397,4.25097
418,0.13732,0.126841,0.0080133,46.6029,2.94418
419,0.216925,0.0736237,0.00941501,24.5442,3.13872
420,0.237939,0.0536254,0.00924449,17.827,3.07321
421,0.164601,0.105668,0.0073992,38.0554,2.66476
422,0.230153,0.0755494,0.00390564,24.4017,1.26148
423,0.224983,0.0542494,0.0100263,18.7546,3.4662
424,0.10974,0.123843,0.00508455,51.8894,2.13039
425,0.204411,0.0725004,0.00866369,25.3876,3.03377
426,0.221389,0.0630381,0.0101973,21.3961,3.46113
427,0.152463,0.121206,0.010982,42.5805,3.85806
428,0.226592,0.0550394,0.0102282,18.8582,3.50448
429,0.224713,0.0572011,0.0113798,19.503,3.88001
430,0.123119,0.161629,0.0113527,54.5858,3.83406
431,0.220767,0.0604502,0.00929022,20.8085,3.19793
432,0.221174,0.0645546,0.012394,21.6537,4.15736
433,0.203039,0.0566115,0.0121898,20.8253,4.48417
434,0.0847799,0.200349,0.013537,67.0813,4.53248
435,0.0996298,0.126947,0.00383444,55.0958,1.66417
436,0.100074,0.115868,0.00630903,52.134,2.8387
437,0.121884,0.132049,0.0101914,49.9951,3.85855
438,0.19387,0.0408778,0.0111388,16.6247,4.53007
439,0.0664149,0.109589,0.00358086,61.0236,1.99396
440,0.0707869,0.123036,0.0064969,61.4199,3.24326
441,0.114327,0.131342,0.00736878,51.906,2.91213
442,0.211215,0.0358671,0.0120071,13.8435,4.63434
443,0.0811862,0.14086,0.0,63.4372,0.0
444,0.096615,0.130803,0.0104312,54.9941,4.38563
445,0.184081,0.0695132,0.011323,26.2396,4.27415
446,0.083656,0.120917,0.004698,57.78,2.24494
447,0.146843,0.0898658,0.00819651,36.6941,3.34681
448,0.145547,0.0725169,0.00617193,32.3395,2.75242
449,0.0779601,0.120392,0.00346412,59.6542,1.71647
450,0.097773,0.144224,0.0,59.5975,0.0
451,0.103184,0.132417,0.00659299,54.674,2.7222
452,0.221658,0.059123,0.0105038,20.2973,3.60602
453,0.0874986,0.149791,0.0,63.1259,0.0
454,0.129811,0.117247,0.00771102,46.0209,3.02667
455,0.201461,0.0622879,0.00955018,22.7911,3.49441
456,0.0989694,0.109066,0.000802611,52.2253,0.384321
457,0.192109,0.0684433,0.0100179,25.296,3.70252
458,0.178936,0.0636524,0.00604737,25.6006,2.43222
459,0.0924521,0.154372,0.00756366,60.6837,2.97328
460,0.111354,0.145937,0.00570773,55.4896,2.17025
461,0.221249,0.0712375,0.00893964,23.6335,2.96578
462,0.107068,0.129695,0.00668795,53.2735,2.74715
463,0.213922,0.0559358,0.00738304,20.1759,2.66305
464,0.198899,0.0478643,0.0127693,18.4425,4.92013
465,0.0955448,0.119552,0.00602998,54.065,2.72693
466,0.191717,0.0677945,0.00606478,25.5273,2.28363
467,0.192043,0.0580057,0.00747979,22.524,2.90445
468,0.20453,0.0862502,0.0127565,28.4151,4.20261
469,0.0974162,0.159484,0.0,62.0801,0.0
470,0.105535,0.136625,0.00302039,55.7242,1.2319
471,0.120692,0.127935,0.0076309,49.9242,2.97782
472,0.212892,0.0390123,0.00803453,15.0082,3.09093
473,0.0747756,0.126346,0.0021947,62.1427,1.07945
474,0.0883856,0.119681,0.00448933,56.3056,2.11207
475,0.208396,0.0475223,0.0114315,17.7753,4.27587
476,0.0856283,0.129657,0.0,60.2257,0.0
477,0.211994,0.0580666,0.0120445,20.5833,4.26952
478,0.219984,0.073544,0.00782964,24.4042,2.59812
479,0.0902316,0.135862,0.00478769,58.8449,2.07366
480,0.102212,0.119811,0.00110283,53.6967,0.494263
481,0.211174,0.0431883,0.00618456,16.576,2.37369
482,0.0841493,0.11663,0.000625363,57.9082,0.310501
483,0.203542,0.0434849,0.00812406,17.0428,3.18402
484,0.207957,0.064955,0.0063102,23.2629,2.25992
485,0.0841288,0.126977,0.00976487,57.4892,4.42109
486,0.178642,0.0606706,0.00783148,24.5487,3.16879
487,0.17787,0.0589686,0.0110865,23.7848,4.47173
488,0.163409,0.0609886,0.0111613,25.891,4.7382
489,0.0751254,0.114883,0.00671905,58.397,3.41542
490,0.0890238,0.109312,0.00803675,52.9684,3.89428
491,0.19566,0.0392423,0.0110749,15.9536,4.50241
492,0.0702538,0.131161,0.00681401,62.9888,3.27237
493,0.202694,0.0502234,0.0119048,18.9649,4.49541
494,0.203659,0.0559188,0.0117467,20.6096,4.3294
495,0.0932598,0.141604,0.0,60.2919,0.0
496,0.217571,0.0545173,0.0113015,19.2376,3.98798
497,0.223405,0.0596624,0.01202,20.2186,4.07337
498,0.196588,0.0664949,0.0147002,23.9377,5.29195
499,0.0851012,0.127308,0.00215266,59.3339,1.00328
500,0.247599,0.0503954,0.0112414,16.2968,3.63523
501,0.237956,0.0559267,0.0132841,18.2073,4.32473
502,0.240134,0.0591884,0.00995495,19.1377,3.21878
503,0.245142,0.0574119,0.0123079,18.234,3.90898
504,0.0583483,0.113605,0.00484352,64.2574,2.73959
505,0.0694129,0.0892839,0.0155093,51.2519,8.90287
506,0.0897146,0.0813932,0.0164066,43.4064,8.74951
507,0.128064,0.0632973,0.0183664,30.1808,8.75728
508,0.152068,0.0513535,0.0175358,23.2414,7.9363
509,0.157276,0.0527374,0.0198211,22.9458,8.62409
510,0.0659067,0.107075,0.0127466,57.6514,6.86303
511,0.127341,0.0776904,0.0173391,34.9375,7.7974
512,0.154582,0.0712311,0.0180111,29.2141,7.3869
513,0.150948,0.0581835,0.0183633,25.5757,8.07198
514,0.184744,0.05668,0.0186808,21.7912,7.18202
515,0.0733112,0.108567,0.0139375,55.4434,7.11767
516,0.134018,0.0781689,0.0201898,33.6388,8.68838
517,0.152989,0.0690535,0.0190068,28.647,7.88501
518,0.17922,0.0480449,0.0196197,19.4605,7.94692
519,0.0802846,0.107681,0.0137048,53.3944,6.79567
520,0.157511,0.0674203,0.0184711,27.6991,7.58871
521,0.177152,0.0499547,0.0193384,20.2701,7.84693
522,0.0748826,0.107263,0.0155659,54.2523,7.87305
523,0.17497,0.0496214,0.0187397,20.3926,7.70131
524,0.185662,0.0461675,0.0180395,18.4767,7.21958
525,0.0701218,0.12581,0.00501348,62.609,2.49495
526,0.092112,0.109675,0.0156118,50.4489,7.18117
527,0.14924,0.0714141,0.0179093,29.9351,7.50714
528,0.176705,0.0642417,0.0199406,24.6243,7.64339
529,0.177334,0.058461,0.018747,22.9671,7.36498
530,0.0885494,0.100797,0.0152539,49.2653,7.45549
531,0.118148,0.0998457,0.0208421,41.8051,8.72652
532,0.156181,0.0593858,0.02003,25.2066,8.50181
533,0.179295,0.0551381,0.0210444,21.5824,8.23728
534,0.0988871,0.111387,0.0164624,49.1262,7.26059
535,0.154662,0.0785425,0.0188087,31.1661,7.46338
536,0.184736,0.0519076,0.0212125,20.1305,8.22651
537,0.11029,0.103113,0.0188971,44.3879,8.13479
538,0.183709,0.0570805,0.0180447,22.053,6.97152
539,0.178757,0.0595519,0.0211404,22.9532,8.14818
540,0.0616745,0.124445,0.00879571,63.8457,4.51258
541,0.104313,0.0950908,0.0190274,43.5335,8.71095
542,0.156622,0.0773866,0.0185355,30.6428,7.33952
543,0.161814,0.0683562,0.0196051,27.367,7.84906
544,0.100727,0.111463,0.016052,48.8355,7.03291
545,0.15664,0.0661524,0.0178819,27.4863,7.42993
546,0.176064,0.0710809,0.020484,26.5595,7.65388
547,0.124301,0.0948769,0.017491,40.0885,7.3905
548,0.177772,0.0628982,0.0199955,24.1298,7.67095
549,0.168285,0.0654221,0.0203434,25.7517,8.00763
550,0.0749571,0.140933,0.00750414,63.0872,3.35914
551,0.116158,0.11109,0.0214963,44.6604,8.64191
552,0.1545,0.0753275,0.0201669,30.1316,8.06694
553,0.110365,0.100591,0.0184527,43.8481,8.0436
554,0.152923,0.0788078,0.0206834,31.2217,8.19424
555,0.158702,0.0894585,0.0214009,33.1867,7.93915
556,0.0899525,0.122483,0.00968473,55.1426,4.36013
557,0.155508,0.0756503,0.0205044,30.0602,8.14757
558,0.14529,0.0744357,0.020602,30.9726,8.57249
559,0.129935,0.0594101,0.0166889,28.8351,8.10008
560,0.059125,0.10778,0.00287902,63.4806,1.6957
561,0.0844635,0.114488,0.00866435,55.1442,4.17326
562,0.0788263,0.101927,0.010958,53.167,5.71587
563,0.0988559,0.109356,0.0127038,49.5012,5.75052
564,0.179192,0.0491215,0.0172706,20.002,7.03246
565,0.0650038,0.119644,0.00103568,64.4344,0.557765
566,0.0646794,0.117972,0.00649449,62.3708,3.43359
567,0.0855824,0.126539,0.00508455,58.2576,2.34089
568,0.198565,0.0544691,0.0211339,19.867,7.70837
569,0.0660227,0.122557,0.00524618,63.2306,2.70664
570,0.0767778,0.114396,0.00972962,56.9409,4.84293
571,0.189039,0.0463381,0.0200969,18.1381,7.86651
572,0.0710495,0.124079,0.00811586,61.0492,3.99316
573,0.203392,0.0517123,0.0189405,18.87,6.91147
574,0.210164,0.0499832,0.0183269,17.949,6.5812
575,0.0750085,0.128214,0.00293793,62.1913,1.42507
576,0.079237,0.129735,0.00689941,60.0983,3.19607
577,0.0882731,0.127578,0.00506792,57.7488,2.29402
578,0.184463,0.0752353,0.0188354,27.0112,6.76234
579,0.0706848,0.128208,0.00551142,62.7227,2.69634
580,0.0845976,0.1285,0.00957001,57.7093,4.29789
581,0.192401,0.0666534,0.014872,24.3326,5.42921
582,0.0801721,0.129994,0.00718281,59.8089,3.30473
583,0.17007,0.0685517,0.0177568,26.7385,6.92601
584,0.178373,0.0586027,0.019359,22.8618,7.5522
585,0.0803565,0.132615,0.0032517,61.3325,1.50386
586,0.0863396,0.12888,0.00812064,57.7057,3.636
587,0.163413,0.0752728,0.0193217,29.1747,7.48882
588,0.0818385,0.128317,0.0061391,59.3251,2.8383
589,0.17539,0.0800361,0.0198286,29.0771,7.20374
590,0.173682,0.0734208,0.0180422,27.6908,6.80465
591,0.0919197,0.136342,0.00411365,58.6732,1.77026
592,0.161315,0.090347,0.017951,33.5098,6.65805
593,0.15999,0.0856604,0.0170993,32.6016,6.50784
594,0.150603,0.0992815,0.0162744,37.3016,6.11453
595,0.0709923,0.138075,0.00280961,65.1675,1.32606
596,0.0822091,0.125078,0.0101965,57.5114,4.68842
597,0.107409,0.131041,0.0110582,52.5198,4.43201
598,0.211948,0.05771,0.018631,20.0181,6.46262
599,0.0751373,0.129818,0.000930498,63.0533,0.451949
600,0.0883317,0.129374,0.00986608,56.8497,4.33538
601,0.200684,0.0537759,0.0192776,19.6451,7.04236
602,0.0717821,0.126482,0.00663112,61.7302,3.23634
603,0.211156,0.0564203,0.0192481,19.6707,6.71077
604,0.211237,0.0519873,0.018178,18.4744,6.45978
605,0.0830043,0.142324,0.00292188,62.3543,1.28013
606,0.0881945,0.13184,0.0090746,57.5446,3.96082
607,0.193828,0.080463,0.0154554,27.7702,5.33412
608,0.0775246,0.130393,0.00327723,61.7407,1.55176
609,0.188897,0.0690237,0.0179888,25.0168,6.51982
610,0.195508,0.0694647,0.0187566,24.4827,6.61074
611,0.0879582,0.142498,0.00459521,60.6241,1.95498
612,0.1208,0.0833707,0.010386,38.8572,4.84068
613,0.109851,0.0551761,0.0158172,30.5102,8.74629
614,0.107155,0.0562345,0.0157903,31.3845,8.81255
615,0.0573137,0.0887656,0.0083287,57.4877,5.39395
616,0.0646826,0.101711,0.0130461,56.6826,7.27045
617,0.154323,0.0423504,0.0165526,19.8617,7.76292
618,0.048827,0.0904929,0.00722915,61.7492,4.93292
619,0.151887,0.0412687,0.0172843,19.6107,8.2134
620,0.18147,0.0488846,0.0176998,19.7072,7.13548
621,0.0564758,0.093031,0.00718281,59.3728,4.5841
622,0.126477,0.048178,0.0171216,25.122,8.92793
623,0.136501,0.0497461,0.0154272,24.6665,7.64953
624,0.122956,0.0586002,0.0156367,29.7172,7.92966
625,0.0614106,0.0949198,0.00612612,58.4278,3.77093
626,0.147819,0.0443717,0.0169035,21.221,8.08416
627,0.183556,0.0532833,0.016251,21.0531,6.42105
628,0.132009,0.0491863,0.0160646,24.9348,8.14389
629,0.134987,0.054958,0.0183587,26.3836,8.81343
630,0.106231,0.136517,0.00386708,55.3563,1.56806
631,0.121349,0.107506,0.00961295,45.082,4.03112
632,0.15568,0.103319,0.00665227,38.8928,2.50413
633,0.198318,0.0830582,0.00733267,28.7689,2.53982
634,0.217484,0.0641358,0.00519574,22.3614,1.81153
635,0.211648,0.069003,0.00528103,24.1327,1.84695
636,0.190981,0.107081,0.00709261,35.0906,2.32427
637,0.218494,0.0745715,0.00056036,25.3968,0.190841
638,0.142746,0.0382183,0.00331838,20.739,1.8007
639,0.233054,0.0561045,0.0,19.4027,0.0
640,0.239973,0.0641832,0.00507902,20.7555,1.64245
641,0.216654,0.0853562,0.00591893,27.7194,1.92217
642,0.218409,0.0685461,0.00542278,23.4444,1.85471
643,0.256888,0.0755615,0.0031881,22.5128,0.949864
644,0.262112,0.0599088,0.000951347,18.5492,0.29456
645,0.21607,0.0719358,0.00470233,24.576,1.60649
646,0.237884,0.0737013,0.00428433,23.3329,1.35636
647,0.246826,0.0613114,0.00733792,19.4346,2.32599
648,0.143359,0.0393076,0.00157124,21.3352,0.852834
649,0.2452,0.0552905,0.00283838,18.2279,0.935742
650,0.25835,0.0557376,0.00560005,17.435,1.75173
651,0.0660591,0.0751965,0.00427516,51.6705,2.93763
652,0.116961,0.118482,0.00707416,48.855,2.91697
653,0.150331,0.114574,0.0132522,41.1904,4.76429
654,0.217332,0.0799255,0.00875361,26.1185,2.86055
655,0.219903,0.0671683,0.00656951,22.8743,2.23726
656,0.129976,0.130917,0.00404422,49.4143,1.52648
657,0.219548,0.104648,0.00415504,31.8707,1.26543
658,0.245051,0.075728,0.0048657,23.2548,1.49417
659,0.243744,0.0614138,0.00490138,19.8071,1.58079
660,0.153606,0.128708,0.00892187,44.1938,3.06345
661,0.236879,0.082813,0.00527586,25.4834,1.6235
662,0.26453,0.068731,0.00557157,20.2847,1.64434
663,0.173824,0.149497,0.00700858,45.2569,2.12169
664,0.269171,0.0651923,0.00382196,19.2771,1.13014
665,0.268171,0.063809,0.00314098,19.0406,0.937266
666,0.112831,0.157643,0.00280128,57.6864,1.02508
667,0.147262,0.129276,0.00809002,45.4193,2.84231
668,0.187978,0.0948069,0.00580778,32.8514,2.01245
669,0.23369,0.0739223,0.00418756,23.7082,1.34303
670,0.144883,0.144649,0.00813746,48.5938,2.73373
671,0.224195,0.0956237,0.00523205,29.4181,1.60961
672,0.241913,0.0698794,0.00524285,22.0415,1.65371
673,0.158235,0.139868,0.00659645,45.9036,2.16491
674,0.267237,0.0820381,0.000939261,23.4251,0.268196
675,0.2454,0.0791919,0.00460425,24.0561,1.39863
676,0.12168,0.159282,0.00089788,56.5111,0.318555
677,0.15474,0.121356,0.0104993,42.3439,3.66346
678,0.218784,0.0806134,0.00733629,26.2813,2.39175
679,0.134641,0.147216,0.00418938,51.4658,1.46458
680,0.226117,0.0754627,0.00556176,24.5694,1.81081
681,0.243237,0.0852136,0.00430789,25.6083,1.2946
682,0.125014,0.152765,0.00356515,54.2983,1.26718
683,0.223456,0.0836504,0.00536304,26.7707,1.71634
684,0.194987,0.0861567,0.0094012,29.6534,3.23571
685,0.165806,0.0930394,0.00652869,35.0598,2.46019
686,0.0968092,0.146225,0.0,60.1665,0.0
687,0.122638,0.114697,0.00961817,46.4448,3.89474
688,0.142124,0.128738,0.00885924,46.0237,3.16717
689,0.143884,0.120211,0.00946023,43.944,3.45826
690,0.246294,0.0547479,0.00671292,17.7895,2.18125
691,0.108717,0.165004,0.00090091,60.0842,0.328055
692,0.104956,0.154639,0.00509025,58.4239,1.92313
693,0.12621,0.157477,0.00545607,54.4633,1.88698
694,0.251,0.0536064,0.00595913,17.2609,1.9188
695,0.0957915,0.140699,0.00277755,58.8039,1.16085
696,0.124691,0.135866,0.00791802,50.6065,2.94926
697,0.261183,0.0546624,0.00306635,17.1403,0.961504
698,0.1118,0.150204,0.00376013,56.5178,1.41484
699,0.266193,0.0560777,0.00464506,17.1535,1.42087
700,0.253475,0.0525593,0.00720851,16.7791,2.30125
701,0.113611,0.168797,0.00211945,59.3253,0.744904
702,0.131876,0.1459,0.00607735,51.3997,2.14102
703,0.18716,0.127508,0.00595697,39.7686,1.85793
704,0.256362,0.0669618,0.00612655,20.3253,1.85963
705,0.101249,0.155844,0.00245865,60.0434,0.947266
706,0.121513,0.135008,0.00559094,51.5078,2.13304
707,0.265772,0.0725755,0.00190659,21.3298,0.560342
708,0.0969804,0.153087,0.0,61.2182,0.0
709,0.257091,0.0704154,0.00455629,21.2055,1.37212
710,0.258956,0.0720234,0.00534874,21.4146,1.59033
711,0.117028,0.154588,0.000248402,56.8622,0.0913697
712,0.154331,0.13443,0.00592419,45.6181,2.01034
713,0.23731,0.0708204,0.00574631,22.5631,1.83075
714,0.110273,0.171119,0.0,60.8117,0.0
715,0.231064,0.0708049,0.00648784,22.962,2.10401
716,0.236235,0.067503,0.00559548,21.8221,1.80888
717,0.117167,0.149418,0.00410238,55.1996,1.51554
718,0.205333,0.0809552,0.00488815,27.8028,1.67876
719,0.2089,0.0896841,0.00533968,29.5087,1.75692
720,0.155403,0.115391,0.00661691,41.5956,2.38524
721,0.103121,0.155498,0.000791528,59.9429,0.305125
722,0.105388,0.140643,0.00785176,55.3968,3.09268
723,0.125081,0.142693,0.00501129,52.3097,1.83709
724,0.256808,0.055819,0.00711504,17.4575,2.22524
725,0.0971312,0.155053,0.0,61.484,0.0
726,0.111728,0.155723,0.00497762,57.1612,1.82713
727,0.254179,0.0535275,0.00616365,17.0541,1.96376
728,0.107183,0.175952,0.000985753,61.9286,0.346948
729,0.230632,0.0745535,0.00443542,24.0789,1.43253
730,0.233031,0.0603162,0.0027086,20.3732,0.914893
731,0.119181,0.151922,0.00268678,55.4884,0.98133
732,0.129036,0.150609,0.0032807,53.2327,1.15957
733,0.224381,0.0840749,0.00478921,26.8399,1.5289
734,0.0995777,0.161371,0.000168348,61.8002,0.0644724
735,0.223566,0.0812946,0.00614154,26.1396,1.97476
736,0.231315,0.0752265,0.0040046,24.224,1.28954
737,0.119142,0.147875,0.00355614,54.6526,1.3143
738,0.140729,0.0616032,0.00797331,29.2923,3.79131
739,0.139697,0.0562355,0.00959617,27.3614,4.66902
740,0.147524,0.0714322,0.00641354,31.6956,2.84579
741,0.0790772,0.109082,0.0,57.9733,0.0
742,0.0929299,0.124649,0.00682238,55.5474,3.04025
743,0.201049,0.0479471,0.00817936,18.6437,3.18046
744,0.0694554,0.109379,8.20572e-06,61.1595,0.00458822
745,0.202815,0.0548333,0.00961414,20.5167,3.59726
746,0.199558,0.0459458,0.00759019,18.1537,2.99896
747,0.0926647,0.12603,0.00158016,57.2149,0.717357
748,0.193747,0.0654553,0.00383654,24.8843,1.45854
749,0.182471,0.0613666,0.00660674,24.503,2.638
750,0.0916274,0.130211,0.000513234,58.5609,0.230821
751,0.177506,0.0786253,0.00669688,29.9151,2.548
752,0.179232,0.0482371,0.0118031,20.16,4.93292
753,0.199586,0.0476912,0.0115389,18.4267,4.45832
754,0.188483,0.0739945,0.0074224,27.4156,2.75006
755,0.196479,0.057809,0.0114189,21.7567,4.29754